REQUEST           1001   20010914          3     141701               0  0    0
ENTRY            10435     860520                                 10435000    1
SUBENT        10435001     860520                                 10435001    1
BIB                 11         20                                 10435001    2
INSTITUTE  (1USARPI)                                              10435001    3
REFERENCE  (C,75WASH,2,905,7503)                                  10435001    4
           (P,COO-3058-50,7403)                                   10435001    5
TITLE      FISSION PRODUCT CAPTURE CROSS SECTIONS IN THE KEV      10435001    6
            REGION.                                               10435001    7
AUTHOR     (R.W.HOCKENBURY,H.D.KNOX,N.N.KAUSHAL)                  10435001    8
FACILITY   (LINAC) LINAC                                          10435001    9
METHOD     (PHD,TOF) PULSE-HEIGHT DISCRIMINATION AND              10435001   10
             TIME-OF-FLIGHT                                       10435001   11
DETECTOR   (SCIN) LIQUID SCINTILLATOR                             10435001   12
MONITOR    NORMALIZED TO RESONANCE PARAMETERS.                    10435001   13
           FLUX SHAPE RELATIVE TO B-10.                           10435001   14
CORRECTION CORRECTIONS HAVE BEEN MADE FOR DEADTIME AND BACKGROUND 10435001   15
            EFFECTS, MONITOR EFFICIENCY AND MULTIPLE SCATTERING.  10435001   16
STATUS     (APRVD) APPROVED BY AUTHOR                             10435001   17
            DATA RECEIVED ON PUNCHED CARDS FROM HOCKENBURY, 74/10.10435001   18
HISTORY    (741024C)                                              10435001   19
           (760302A) RESONANCE PARAMETERS ADDED                   10435001   20
           (830607A) CONVERTED TO REACTION FORMALISM              10435001   21
           (860520A) BIB UPDATE.                                  10435001   22
ENDBIB              20                                            10435001   23
NOCOMMON             0          0                                 10435001   24
ENDSUBENT           23                                            1043500199999
SUBENT        10435004     830607                                 10435004    1
BIB                  2          3                                 10435004    2
REACTION   (46-PD-105(N,G)46-PD-106,,SIG)                         10435004    3
ERR-ANALYS DATA ERROR GIVEN IS STATISTICAL ERROR, NORMALIZATION   10435004    4
            ERROR - 4 PERCENT.                                    10435004    5
ENDBIB               3                                            10435004    6
COMMON               1          3                                 10435004    7
DATA-ERR                                                          10435004    8
PER-CENT                                                          10435004    9
 4.                                                               10435004   10
ENDCOMMON            3                                            10435004   11
DATA                 2        562                                 10435004   12
EN         DATA                                                   10435004   13
KEV        B                                                      10435004   14
     6.3140     1.7479                                            10435004   15
     6.3309     1.6556                                            10435004   16
     6.3479     1.7753                                            10435004   17
     6.3649     1.8915                                            10435004   18
     6.3820     2.0062                                            10435004   19
     6.3992     2.2017                                            10435004   20
     6.4165     2.1925                                            10435004   21
     6.4338     1.9662                                            10435004   22
     6.4512     1.9733                                            10435004   23
     6.4687     2.2724                                            10435004   24
     6.4862     2.2422                                            10435004   25
     6.5038     1.9338                                            10435004   26
     6.5215     1.7882                                            10435004   27
     6.5393     1.7204                                            10435004   28
     6.5571     1.5714                                            10435004   29
     6.5750     1.5809                                            10435004   30
     6.5930     1.7637                                            10435004   31
     6.6110     2.1262                                            10435004   32
     6.6292     2.4864                                            10435004   33
     6.6474     2.7218                                            10435004   34
     6.6656     2.5446                                            10435004   35
     6.6840     2.0012                                            10435004   36
     6.7024     1.6475                                            10435004   37
     6.7209     1.7308                                            10435004   38
     6.7395     2.1453                                            10435004   39
     6.7582     2.4011                                            10435004   40
     6.7769     2.2160                                            10435004   41
     6.7957     1.9050                                            10435004   42
     6.8146     1.9524                                            10435004   43
     6.8336     2.2180                                            10435004   44
     6.8526     2.0644                                            10435004   45
     6.8717     1.8989                                            10435004   46
     6.8909     1.5716                                            10435004   47
     6.9102     1.7201                                            10435004   48
     6.9296     1.8970                                            10435004   49
     6.9491     2.2919                                            10435004   50
     6.9686     2.3912                                            10435004   51
     6.9882     2.2556                                            10435004   52
     7.0079     1.9808                                            10435004   53
     7.0277     2.1346                                            10435004   54
     7.0476     2.2437                                            10435004   55
     7.0675     2.0949                                            10435004   56
     7.0875     2.2043                                            10435004   57
     7.1077     2.2095                                            10435004   58
     7.1279     1.9592                                            10435004   59
     7.1482     2.3735                                            10435004   60
     7.1685     2.3869                                            10435004   61
     7.1890     2.4336                                            10435004   62
     7.2096     2.4583                                            10435004   63
     7.2302     2.0974                                            10435004   64
     7.2509     2.0985                                            10435004   65
     7.2718     2.2753                                            10435004   66
     7.2927     2.6624                                            10435004   67
     7.3137     2.6803                                            10435004   68
     7.3348     2.9096                                            10435004   69
     7.3559     2.8161                                            10435004   70
     7.3772     2.4733                                            10435004   71
     7.3986     2.5297                                            10435004   72
     7.4200     2.2270                                            10435004   73
     7.4416     2.1192                                            10435004   74
     7.4632     1.8024                                            10435004   75
     7.4850     1.8701                                            10435004   76
     7.5068     1.7050                                            10435004   77
     7.5288     2.0843                                            10435004   78
     7.5508     2.3041                                            10435004   79
     7.5729     2.1592                                            10435004   80
     7.5951     1.9357                                            10435004   81
     7.6175     1.8016                                            10435004   82
     7.6399     1.7083                                            10435004   83
     7.6624     1.2909                                            10435004   84
     7.6850     1.2827                                            10435004   85
     7.7077     1.3963                                            10435004   86
     7.7306     1.8202                                            10435004   87
     7.7535     2.3791                                            10435004   88
     7.7765     2.6825                                            10435004   89
     7.7996     2.7020                                            10435004   90
     7.8229     2.5693                                            10435004   91
     7.8462     2.3400                                            10435004   92
     7.8696     2.4935                                            10435004   93
     7.8932     2.3459                                            10435004   94
     7.9168     1.9931                                            10435004   95
     7.9406     1.8617                                            10435004   96
     7.9645     1.9849                                            10435004   97
     7.9884     2.1449                                            10435004   98
     8.0125     2.7243                                            10435004   99
     8.0367     2.7258                                            10435004  100
     8.0610     2.3294                                            10435004  101
     8.0854     1.9540                                            10435004  102
     8.1099     1.8199                                            10435004  103
     8.1346     2.1483                                            10435004  104
     8.1593     2.3501                                            10435004  105
     8.1842     2.0358                                            10435004  106
     8.2091     1.6995                                            10435004  107
     8.2342     2.0251                                            10435004  108
     8.2594     2.0537                                            10435004  109
     8.2847     1.9791                                            10435004  110
     8.3102     1.6994                                            10435004  111
     8.3357     2.0317                                            10435004  112
     8.3614     1.9964                                            10435004  113
     8.3872     1.5539                                            10435004  114
     8.4131     1.4948                                            10435004  115
     8.4391     1.6051                                            10435004  116
     8.4652     1.6119                                            10435004  117
     8.4915     1.9254                                            10435004  118
     8.5179     2.0976                                            10435004  119
     8.5444     2.1035                                            10435004  120
     8.5711     2.0635                                            10435004  121
     8.5978     2.3977                                            10435004  122
     8.6247     2.3855                                            10435004  123
     8.6517     2.3962                                            10435004  124
     8.6789     2.2202                                            10435004  125
     8.7061     2.2706                                            10435004  126
     8.7335     2.0602                                            10435004  127
     8.7611     1.5504                                            10435004  128
     8.7887     1.3712                                            10435004  129
     8.8165     1.8043                                            10435004  130
     8.8444     2.0093                                            10435004  131
     8.8725     2.1125                                            10435004  132
     8.9007     2.2906                                            10435004  133
     8.9290     2.8767                                            10435004  134
     8.9575     3.0538                                            10435004  135
     8.9861     2.4807                                            10435004  136
     9.0148     1.9574                                            10435004  137
     9.0437     1.6095                                            10435004  138
     9.0727     1.6437                                            10435004  139
     9.1018     1.5896                                            10435004  140
     9.1311     1.6439                                            10435004  141
     9.1605     1.6928                                            10435004  142
     9.1901     2.0753                                            10435004  143
     9.2198     2.1565                                            10435004  144
     9.2497     2.1945                                            10435004  145
     9.2797     1.9211                                            10435004  146
     9.3099     1.5152                                            10435004  147
     9.3402     1.5780                                            10435004  148
     9.3706     1.9437                                            10435004  149
     9.4012     2.2653                                            10435004  150
     9.4320     2.0544                                            10435004  151
     9.4629     1.8428                                            10435004  152
     9.4939     1.7229                                            10435004  153
     9.5251     1.5621                                            10435004  154
     9.5565     1.5165                                            10435004  155
     9.5880     1.5967                                            10435004  156
     9.6197     1.3206                                            10435004  157
     9.6515     1.1091                                            10435004  158
     9.6835     1.3102                                            10435004  159
     9.7156     1.6708                                            10435004  160
     9.7479     1.6314                                            10435004  161
     9.7804     1.6120                                            10435004  162
     9.8130     1.7019                                            10435004  163
     9.8458     1.7257                                            10435004  164
     9.8788     1.8659                                            10435004  165
     9.9119     2.1058                                            10435004  166
     9.9452     1.9701                                            10435004  167
     9.9786     1.7616                                            10435004  168
    10.0123     1.8165                                            10435004  169
    10.0461     2.1020                                            10435004  170
    10.0800     2.3331                                            10435004  171
    10.1142     2.2791                                            10435004  172
    10.1485     2.0321                                            10435004  173
    10.1830     1.8824                                            10435004  174
    10.2176     1.7070                                            10435004  175
    10.2525     2.0190                                            10435004  176
    10.2875     1.9219                                            10435004  177
    10.3227     1.5865                                            10435004  178
    10.3581     1.6312                                            10435004  179
    10.3936     1.8800                                            10435004  180
    10.4294     1.9329                                            10435004  181
    10.4653     1.8443                                            10435004  182
    10.5014     1.7290                                            10435004  183
    10.5377     1.7634                                            10435004  184
    10.5742     2.1275                                            10435004  185
    10.6109     2.0303                                            10435004  186
    10.6478     1.7268                                            10435004  187
    10.6849     1.7711                                            10435004  188
    10.7221     1.7481                                            10435004  189
    10.7596     1.5920                                            10435004  190
    10.7972     1.6449                                            10435004  191
    10.8351     1.8073                                            10435004  192
    10.8731     1.6903                                            10435004  193
    10.9114     1.6269                                            10435004  194
    10.9498     1.5189                                            10435004  195
    10.9885     1.8363                                            10435004  196
    11.0274     2.1808                                            10435004  197
    11.0664     2.1303                                            10435004  198
    11.1057     2.0388                                            10435004  199
    11.1452     2.1163                                            10435004  200
    11.1849     2.0480                                            10435004  201
    11.2248     1.8555                                            10435004  202
    11.2649     1.8943                                            10435004  203
    11.3053     2.0364                                            10435004  204
    11.3458     2.2491                                            10435004  205
    11.3866     2.1879                                            10435004  206
    11.4276     1.9227                                            10435004  207
    11.4688     2.2131                                            10435004  208
    11.5103     2.3482                                            10435004  209
    11.5519     2.2138                                            10435004  210
    11.5938     2.1488                                            10435004  211
    11.6359     1.9952                                            10435004  212
    11.6783     1.7150                                            10435004  213
    11.7209     1.7042                                            10435004  214
    11.7637     1.5561                                            10435004  215
    11.8067     1.6793                                            10435004  216
    11.8500     1.8053                                            10435004  217
    11.8936     1.8394                                            10435004  218
    11.9373     1.8745                                            10435004  219
    11.9813     1.9260                                            10435004  220
    12.0256     2.1346                                            10435004  221
    12.0701     2.1416                                            10435004  222
    12.1148     1.9668                                            10435004  223
    12.1598     1.9061                                            10435004  224
    12.2051     1.7351                                            10435004  225
    12.2506     1.6923                                            10435004  226
    12.2963     1.7381                                            10435004  227
    12.3423     1.9702                                            10435004  228
    12.3886     1.7982                                            10435004  229
    12.4351     1.6152                                            10435004  230
    12.4819     1.6549                                            10435004  231
    12.5290     1.6250                                            10435004  232
    12.5763     1.5351                                            10435004  233
    12.6239     1.5604                                            10435004  234
    12.6718     1.7353                                            10435004  235
    12.7199     1.9766                                            10435004  236
    12.7683     2.0171                                            10435004  237
    12.8170     2.1016                                            10435004  238
    12.8660     2.1366                                            10435004  239
    12.9152     1.8845                                            10435004  240
    12.9647     1.8223                                            10435004  241
    13.0146     1.8979                                            10435004  242
    13.0647     1.9366                                            10435004  243
    13.1151     1.8546                                            10435004  244
    13.1657     1.9229                                            10435004  245
    13.2167     1.8982                                            10435004  246
    13.2680     1.6469                                            10435004  247
    13.3196     1.5202                                            10435004  248
    13.3714     1.4482                                            10435004  249
    13.4236     1.3766                                            10435004  250
    13.4761     1.4129                                            10435004  251
    13.5289     1.5868                                            10435004  252
    13.5820     1.8123                                            10435004  253
    13.6354     1.9995                                            10435004  254
    13.6892     1.9137                                            10435004  255
    13.7432     1.7235                                            10435004  256
    13.7976     1.7097                                            10435004  257
    13.8523     1.6156                                            10435004  258
    13.9073     1.6942                                            10435004  259
    13.9627     1.8503                                            10435004  260
    14.0184     1.8156                                            10435004  261
    14.0744     1.7583                                            10435004  262
    14.1307     1.7074                                            10435004  263
    14.1874     1.4893                                            10435004  264
    14.2445     1.5939                                            10435004  265
    14.3018     1.5199                                            10435004  266
    14.3596     1.2925                                            10435004  267
    14.4176     1.4301                                            10435004  268
    14.4761     1.5201                                            10435004  269
    14.5349     1.4642                                            10435004  270
    14.5940     1.4799                                            10435004  271
    14.6535     1.5104                                            10435004  272
    14.7134     1.6012                                            10435004  273
    14.7736     1.5659                                            10435004  274
    14.8342     1.5295                                            10435004  275
    14.8952     1.6132                                            10435004  276
    14.9566     1.8622                                            10435004  277
    15.0183     1.7655                                            10435004  278
    15.0804     1.5165                                            10435004  279
    15.1429     1.5658                                            10435004  280
    15.2058     1.8309                                            10435004  281
    15.2691     1.7162                                            10435004  282
    15.3328     1.4961                                            10435004  283
    15.3969     1.4570                                            10435004  284
    15.4614     1.5612                                            10435004  285
    15.5263     1.4745                                            10435004  286
    15.5916     1.4510                                            10435004  287
    15.6573     1.5631                                            10435004  288
    15.7235     1.6382                                            10435004  289
    15.7900     1.6170                                            10435004  290
    15.8570     1.7533                                            10435004  291
    15.9244     1.7256                                            10435004  292
    15.9922     1.6595                                            10435004  293
    16.0605     1.5872                                            10435004  294
    16.1292     1.5658                                            10435004  295
    16.1984     1.5165                                            10435004  296
    16.2680     1.6418                                            10435004  297
    16.3380     1.5533                                            10435004  298
    16.4085     1.5330                                            10435004  299
    16.4795     1.5359                                            10435004  300
    16.5509     1.5135                                            10435004  301
    16.6228     1.4014                                            10435004  302
    16.6951     1.4544                                            10435004  303
    16.7679     1.4344                                            10435004  304
    16.8412     1.4609                                            10435004  305
    16.9150     1.4230                                            10435004  306
    16.9893     1.4564                                            10435004  307
    17.0640     1.5208                                            10435004  308
    17.1393     1.7525                                            10435004  309
    17.2151     1.8454                                            10435004  310
    17.2913     1.5655                                            10435004  311
    17.3681     1.6687                                            10435004  312
    17.4454     1.6798                                            10435004  313
    17.5231     1.5345                                            10435004  314
    17.6015     1.4945                                            10435004  315
    17.6803     1.5097                                            10435004  316
    17.7597     1.5838                                            10435004  317
    17.8396     1.4946                                            10435004  318
    17.9200     1.4267                                            10435004  319
    18.0010     1.4930                                            10435004  320
    18.0826     1.5411                                            10435004  321
    18.1647     1.6692                                            10435004  322
    18.2473     1.5594                                            10435004  323
    18.3306     1.5110                                            10435004  324
    18.4144     1.5232                                            10435004  325
    18.4987     1.5287                                            10435004  326
    18.5837     1.5388                                            10435004  327
    18.6692     1.6668                                            10435004  328
    18.7554     1.5973                                            10435004  329
    18.8421     1.5507                                            10435004  330
    18.9294     1.4690                                            10435004  331
    19.0174     1.5671                                            10435004  332
    19.1059     1.6278                                            10435004  333
    19.1951     1.7190                                            10435004  334
    19.2849     1.8187                                            10435004  335
    19.3753     1.5390                                            10435004  336
    19.4664     1.3803                                            10435004  337
    19.5581     1.5013                                            10435004  338
    19.6505     1.5344                                            10435004  339
    19.7435     1.4422                                            10435004  340
    19.8372     1.4442                                            10435004  341
    19.9315     1.6214                                            10435004  342
    20.0266     1.5725                                            10435004  343
    20.1223     1.5350                                            10435004  344
    20.2187     1.5561                                            10435004  345
    20.3157     1.5397                                            10435004  346
    20.4135     1.3737                                            10435004  347
    20.5120     1.2314                                            10435004  348
    20.6112     1.4231                                            10435004  349
    20.7112     1.2696                                            10435004  350
    20.8118     1.2546                                            10435004  351
    20.9132     1.2665                                            10435004  352
    21.0154     1.3632                                            10435004  353
    21.1183     1.4133                                            10435004  354
    21.2219     1.4719                                            10435004  355
    21.3263     1.5048                                            10435004  356
    21.4315     1.3146                                            10435004  357
    21.5375     1.2633                                            10435004  358
    21.6442     1.2195                                            10435004  359
    21.7518     1.2417                                            10435004  360
    21.8601     1.2787                                            10435004  361
    21.9693     1.2934                                            10435004  362
    22.0793     1.2713                                            10435004  363
    22.1901     1.2835                                            10435004  364
    22.3017     1.3351                                            10435004  365
    22.4142     1.3897                                            10435004  366
    22.5276     1.4450                                            10435004  367
    22.6418     1.4017                                            10435004  368
    22.7569     1.3316                                            10435004  369
    22.8728     1.2575                                            10435004  370
    22.9897     1.2883                                            10435004  371
    23.1074     1.3094                                            10435004  372
    23.2261     1.5208                                            10435004  373
    23.3456     1.4431                                            10435004  374
    23.4661     1.4646                                            10435004  375
    23.5875     1.4938                                            10435004  376
    23.7099     1.5171                                            10435004  377
    23.8333     1.4060                                            10435004  378
    23.9575     1.2497                                            10435004  379
    24.0828     1.2187                                            10435004  380
    24.2091     1.3020                                            10435004  381
    24.3363     1.3075                                            10435004  382
    24.4646     1.3648                                            10435004  383
    24.5938     1.2257                                            10435004  384
    24.7241     1.2971                                            10435004  385
    24.8555     1.2959                                            10435004  386
    24.9879     1.3280                                            10435004  387
    25.1213     1.3904                                            10435004  388
    25.2558     1.4414                                            10435004  389
    25.3914     1.3589                                            10435004  390
    25.5281     1.3164                                            10435004  391
    25.6659     1.3083                                            10435004  392
    25.8048     1.2924                                            10435004  393
    25.9449     1.2716                                            10435004  394
    26.0861     1.3200                                            10435004  395
    26.2284     1.3800                                            10435004  396
    26.3720     1.3489                                            10435004  397
    26.5167     1.2678                                            10435004  398
    26.6626     1.2849                                            10435004  399
    26.8097     1.2514                                            10435004  400
    26.9580     1.2861                                            10435004  401
    27.1076     1.3665                                            10435004  402
    27.2584     1.2686                                            10435004  403
    27.4104     1.2023                                            10435004  404
    27.5638     1.2311                                            10435004  405
    27.7184     1.2058                                            10435004  406
    27.8743     1.2730                                            10435004  407
    28.0316     1.2550                                            10435004  408
    28.1902     1.2210                                            10435004  409
    28.3501     1.4104                                            10435004  410
    28.5115     1.4392                                            10435004  411
    28.6741     1.3121                                            10435004  412
    28.8382     1.2981                                            10435004  413
    29.0037     1.2694                                            10435004  414
    29.1707     1.2953                                            10435004  415
    29.3390     1.1439                                            10435004  416
    29.5089     1.1039                                            10435004  417
    29.6802     1.1752                                            10435004  418
    29.8530     1.2559                                            10435004  419
    30.0273     1.1932                                            10435004  420
    30.2032     1.2686                                            10435004  421
    30.3806     1.3193                                            10435004  422
    30.5595     1.1428                                            10435004  423
    30.7401     1.1777                                            10435004  424
    30.9223     1.2923                                            10435004  425
    31.1061     1.1281                                            10435004  426
    31.2915     1.0868                                            10435004  427
    31.4786     1.1288                                            10435004  428
    31.6674     1.0905                                            10435004  429
    31.8578     1.0732                                            10435004  430
    32.0500     1.1717                                            10435004  431
    32.2440     1.2427                                            10435004  432
    32.4397     1.1963                                            10435004  433
    32.6372     1.0067                                            10435004  434
    32.8365     1.1364                                            10435004  435
    39.2520     1.0245                                            10435004  436
    39.5150     0.9626                                            10435004  437
    39.7807     1.0387                                            10435004  438
    40.0490     1.0479                                            10435004  439
    40.3201     1.1122                                            10435004  440
    40.5939     1.0194                                            10435004  441
    40.8705     1.0750                                            10435004  442
    41.1500     1.1883                                            10435004  443
    41.4323     1.0538                                            10435004  444
    41.7175     1.0937                                            10435004  445
    42.0058     1.0242                                            10435004  446
    42.2970     1.0365                                            10435004  447
    42.5912     1.0389                                            10435004  448
    42.8885     1.0763                                            10435004  449
    43.1890     1.1295                                            10435004  450
    43.4926     0.9827                                            10435004  451
    43.7994     1.0544                                            10435004  452
    44.1095     1.0319                                            10435004  453
    44.4229     1.0705                                            10435004  454
    44.7396     1.1133                                            10435004  455
    45.0597     1.0143                                            10435004  456
    45.3833     1.0317                                            10435004  457
    45.7104     0.8972                                            10435004  458
    46.0410     0.9893                                            10435004  459
    46.3753     0.9842                                            10435004  460
    46.7132     0.9814                                            10435004  461
    47.0548     0.9589                                            10435004  462
    47.4001     0.9438                                            10435004  463
    47.7493     0.9960                                            10435004  464
    48.1023     1.0294                                            10435004  465
    48.4593     1.0274                                            10435004  466
    48.8203     0.9358                                            10435004  467
    49.1853     0.9104                                            10435004  468
    49.5544     0.8917                                            10435004  469
    49.9277     0.9415                                            10435004  470
    50.3052     0.9968                                            10435004  471
    50.6870     1.0039                                            10435004  472
    51.0732     0.9875                                            10435004  473
    51.4638     0.9714                                            10435004  474
    51.8590     0.9359                                            10435004  475
    52.2586     0.9106                                            10435004  476
    52.6630     0.9484                                            10435004  477
    53.0720     0.8516                                            10435004  478
    53.4858     0.8533                                            10435004  479
    53.9045     0.8814                                            10435004  480
    54.3281     0.8933                                            10435004  481
    54.7567     0.8633                                            10435004  482
    55.1904     0.8691                                            10435004  483
    55.6293     0.8987                                            10435004  484
    56.0735     0.8691                                            10435004  485
    56.5229     0.8710                                            10435004  486
    56.9778     0.8534                                            10435004  487
    57.4383     0.8833                                            10435004  488
    57.9043     0.8677                                            10435004  489
    58.3760     0.8850                                            10435004  490
    58.8535     0.8588                                            10435004  491
    59.3369     0.7938                                            10435004  492
    59.8263     0.8161                                            10435004  493
    60.3218     0.8236                                            10435004  494
    60.8234     0.8847                                            10435004  495
    61.3313     0.8714                                            10435004  496
    61.8456     0.8381                                            10435004  497
    62.3664     0.9032                                            10435004  498
    62.8938     0.9080                                            10435004  499
    63.4280     0.8228                                            10435004  500
    63.9689     0.8364                                            10435004  501
    64.5168     0.8360                                            10435004  502
    65.0718     0.8712                                            10435004  503
    65.6340     0.7951                                            10435004  504
    66.2035     0.7810                                            10435004  505
    66.7804     0.7995                                            10435004  506
    67.3649     0.7592                                            10435004  507
    67.9571     0.7696                                            10435004  508
    68.5572     0.7611                                            10435004  509
    69.1652     0.7728                                            10435004  510
    69.7814     0.7842                                            10435004  511
    70.4058     0.7910                                            10435004  512
    71.0387     0.7446                                            10435004  513
    71.6801     0.6980                                            10435004  514
    72.3303     0.7252                                            10435004  515
    72.9893     0.7227                                            10435004  516
    73.6574     0.7613                                            10435004  517
    74.3347     0.6695                                            10435004  518
    75.0214     0.6851                                            10435004  519
    75.7177     0.6450                                            10435004  520
    76.4237     0.6315                                            10435004  521
    77.1396     0.6797                                            10435004  522
    77.8656     0.6333                                            10435004  523
    78.6019     0.6395                                            10435004  524
    79.3487     0.6299                                            10435004  525
    80.1062     0.6897                                            10435004  526
    80.8746     0.6027                                            10435004  527
    81.6541     0.5537                                            10435004  528
    82.4449     0.5260                                            10435004  529
    83.2473     0.6374                                            10435004  530
    84.0615     0.6104                                            10435004  531
   129.7588     0.4852                                            10435004  532
   131.3461     0.4853                                            10435004  533
   132.9626     0.4457                                            10435004  534
   134.6092     0.4636                                            10435004  535
   136.2865     0.4544                                            10435004  536
   137.9955     0.4361                                            10435004  537
   139.7367     0.4647                                            10435004  538
   141.5111     0.3598                                            10435004  539
   143.3196     0.4571                                            10435004  540
   145.1629     0.4455                                            10435004  541
   147.0420     0.5371                                            10435004  542
   148.9578     0.5602                                            10435004  543
   150.9113     0.5361                                            10435004  544
   152.9035     0.6256                                            10435004  545
   154.9355     0.5577                                            10435004  546
   157.0082     0.5017                                            10435004  547
   159.1227     0.5865                                            10435004  548
   161.2803     0.4745                                            10435004  549
   163.4820     0.5024                                            10435004  550
   165.7292     0.5589                                            10435004  551
   168.0230     0.4653                                            10435004  552
   170.3648     0.4595                                            10435004  553
   172.7558     0.4374                                            10435004  554
   175.1976     0.4677                                            10435004  555
   177.6914     0.4788                                            10435004  556
   180.2390     0.4224                                            10435004  557
   182.8417     0.4472                                            10435004  558
   185.5011     0.4362                                            10435004  559
   188.2191     0.3843                                            10435004  560
   190.9972     0.4138                                            10435004  561
   193.8372     0.3933                                            10435004  562
   196.7411     0.3908                                            10435004  563
   199.7108     0.4226                                            10435004  564
   245.3252     0.4057                                            10435004  565
   249.4657     0.4311                                            10435004  566
   253.7118     0.3950                                            10435004  567
   258.0673     0.4021                                            10435004  568
   262.5359     0.4018                                            10435004  569
   267.1216     0.3819                                            10435004  570
   271.8285     0.3820                                            10435004  571
   276.6609     0.3648                                            10435004  572
   281.6234     0.3760                                            10435004  573
   286.7205     0.3870                                            10435004  574
   291.9573     0.4002                                            10435004  575
   297.3389     0.3151                                            10435004  576
ENDDATA            564                                            10435004  577
ENDSUBENT          576                                            1043500499999
ENDENTRY             2                                            1043599999999
ENTRY            10868     860613                                 10868000    1
SUBENT        10868001     860613                                 10868001    1
BIB                 13         36                                 10868001    2
INSTITUTE  (1USAORL)                                              10868001    3
REFERENCE  (J,NSE,71,182,7908)                                    10868001    4
           (J,NSE,78,110,8105)CORRECTED AVERAGE CAPTURE           10868001    5
            CROSS SECTION.                                        10868001    6
AUTHOR     (R.L.MACKLIN,J.HALPERIN,R.R.WINTERS)                   10868001    7
TITLE      PD-104,105,106,108,110(N,GAMMA) CROSS SECTIONS ABOVE   10868001    8
            2.6-KEV                                               10868001    9
FACILITY   (LINAC) OAK RIDGE ELECTRON LINEAR ACCELERATOR          10868001   10
INC-SOURCE (EVAP) PULSED ELECTRONS ON TANTALUM WITH BE CANNED     10868001   11
            WATER MODERATOR                                       10868001   12
METHOD     (TOF). OVERLAP NEUTRONS ELIMINATED WITH 0.48-GM/CM-SQ  10868001   13
            BORON-10 FILTER. COPPER AND LEAD SHADOW BARS USED TO  10868001   14
            REDUCE GAMMA FLASH AND FAST NEUTRON FLUX FROM SOURCE. 10868001   15
            DATA FROM SEVERAL SAMPLES WERE COMBINED TO DERIVE     10868001   16
            ISOTOPIC CROSS SECTIONS FOR PURE ISOTOPES. SLIGHT     10868001   17
            REVISION OF NEUTRON FLUX SHAPE ABOVE 70-KEV (LESS THAN10868001   18
            6-PERCENT) MADE REFERENCED TO U-235 FISSION CROSS     10868001   19
            SECTIONS FROM ENDF/B-V.                               10868001   20
DETECTOR   (SCIN) PROMPT GAMMAS FROM CAPTURE DETECTED WITH PAIR OF10868001   21
            C(6)F(6) LIQUID SCINTILLATORS, 10-CM DIAMETER BY 4-CM 10868001   22
            THICK. BEAM MONITOR IS LI-6 GLASS SCINTILLATOR,       10868001   23
            0.05-CM THICK.                                        10868001   24
MONITOR    (3-LI-6(N,T)2-HE-4,,SIG) BEAM MONITOR                  10868001   25
           (92-U-235(N,F),,SIG) FROM ENDF/B-V                     10868001   26
CORRECTION CORRECTED FOR                                          10868001   27
            -DEAD TIME                                            10868001   28
            -BACKGROUND                                           10868001   29
            -ENVIROMENAL EFFECTS, APPROX 48-COUNTS/SEC            10868001   30
            -BEAM LEAKAGE, APPROX 1-16 PERCENT                    10868001   31
            -SAMPLE SCATTERED NEUTRON EFFECTS, 1-3 PERCENT        10868001   32
ERR-ANALYS CROSS SECTION CALIBRATION ERRORS, MAXIMUM OF 5-PERCENT 10868001   33
            AT 1 STANDARD DEVIATION                               10868001   34
STATUS     (APRVD) APPROVED BY R.L.MACKLIN, 79/9/7                10868001   35
HISTORY    (790521C)                                              10868001   36
           (801205A) STATUS COMMENT ADDED.                        10868001   37
           (860613A) BIB CORRECTIONS.                             10868001   38
ENDBIB              36                                            10868001   39
NOCOMMON             0          0                                 10868001   40
ENDSUBENT           39                                            1086800199999
SUBENT        10868008     820803                                 10868008    1
BIB                  5         10                                 10868008    2
REACTION   (46-PD-105(N,G)46-PD-106,,SIG,,AV)                     10868008    3
METHOD     SAMPLE YIELD DATA LINEARLY COMBINED TO DERIVE CAPTURE  10868008    4
            CROSS SECTIONS                                        10868008    5
CORRECTION SAMPLE YIELD DATA CORRECTED FOR AVERAGE RESONANCE SELF-10868008    6
            ABSORPTION AND POTENTIAL SCATTERING INTO RESONANCES.  10868008    7
           CAPTURE CROSS SECTION CORRECTION FACTOR 1.1131 DUE     10868008    8
            TO ERROR IN PROCESSING CODE.                          10868008    9
STATUS     CORRECTED AVERAGE CROSS SECTIONS TAKEN FROM            10868008   10
            NUC. SCI. ENG.78,110(1981).                           10868008   11
HISTORY    (820712A) DATA REPLACED                                10868008   12
ENDBIB              10                                            10868008   13
NOCOMMON             0          0                                 10868008   14
DATA                 3         18                                 10868008   15
EN-MIN     EN-MAX     DATA                                        10868008   16
KEV        KEV        MB                                          10868008   17
   3.         4.       2594.0                                     10868008   18
   4.         6.       2514.1                                     10868008   19
   6.         8.       2127.0                                     10868008   20
   8.        10.       1915.3                                     10868008   21
  10.        15.       1782.7                                     10868008   22
  15.        20.       1580.1                                     10868008   23
  20.        30.       1343.4                                     10868008   24
  30.        40.       1148.7                                     10868008   25
  40.        60.        976.0                                     10868008   26
  60.        80.        809.4                                     10868008   27
  80.       100.        701.9                                     10868008   28
 100.       150.        603.9                                     10868008   29
 150.       200.        509.8                                     10868008   30
 200.       300.        445.4                                     10868008   31
 300.       400.        316.4                                     10868008   32
 400.       500.        232.5                                     10868008   33
 500.       600.        185.5                                     10868008   34
 600.       700.        161.7                                     10868008   35
ENDDATA             20                                            10868008   36
ENDSUBENT           35                                            1086800899999
ENDENTRY             2                                            1086899999999
ENTRY            21810     830210                                 21810000    1
SUBENT        21810001     830210                                 21810001    1
BIB                 14         42                                 21810001    2
INSTITUTE  (2ZZZGEL) EXPERIMENTAL SITE, C.B.,G.R.,R.S.,           21810001    3
                     T.VAN DER V.                                 21810001    4
           (2BLGBLG) E.C.,G.J.V.   RIJKSUNIVERSITAIR CENTRUM      21810001    5
                                   ANTWERPEN                      21810001    6
REFERENCE  (C,82ANTWER,,222,8209)                                 21810001    7
           (P,INDC(EUR)-15,18,8203)                               21810001    8
AUTHOR     (E.CORNELIS,G.J.VANPRAET,C.BASTIAN,G.ROHR,             21810001    9
            R.SHELLEY,T.VAN DER VEEN)                             21810001   10
TITLE      -AVERAGE CAPTURE CROSS SECTION OF THE FISSION          21810001   11
            PRODUCT NUCLEI PD-104 PD-105 PD-106 PD-108            21810001   12
            PD-110.                                               21810001   13
FACILITY   (LINAC) ELECTRON LINAC AT GEEL.                        21810001   14
INC-SOURCE (PHOTO) MERCURY-COOLED NATURAL URANIUM TARGET.         21810001   15
                   POLYETHYLENE MODERATOR.                        21810001   16
SAMPLE     .ENRICHED SAMPLES OF PD ISOTOPES -                     21810001   17
             ISOTOPE    PER CENT        PD-105      THICKNESS     21810001   18
                       ABUNDANCE    CONTAMINATION  ATOMS/BARN     21810001   19
             -------   ---------    -------------  ----------     21810001   20
              PD-104     95.25           2.64       0.001077      21810001   21
              PD-105     97.38                      0.000894      21810001   22
              PD-106     98.48           0.79       0.002250      21810001   23
              PD-108     98.88           0.22       0.002461      21810001   24
              PD-110     97.73           0.36       0.001470      21810001   25
METHOD     (TOF  ) TIME OF FLIGHT PATH LENGTH 30 METRES.          21810001   26
DETECTOR   (SCIN ) TWO CYLINDRICAL LIQUID SCINTILLATORS,          21810001   27
                   DIAMETER 10.2 CM, THICKNESS 7.5 CM.            21810001   28
                   ALSO USED IN CONJUNCTION WITH A BORON-10       21810001   29
                   CARBIDE SLAB TO MEASURE THE RELATIVE           21810001   30
                   NEUTRON FLUX.                                  21810001   31
           (GLASD) LI-6 GLASS SCINTILLATOR. NEUTRON FLUX          21810001   32
                   MONITOR.                                       21810001   33
PART-DET   (G    ) PROMPT DECAY GAMMAS.                           21810001   34
           (N    )                                                21810001   35
STATUS     .DATA TAKEN FROM MAIN REFERENCE.                       21810001   36
HISTORY    (830118C) A.P.T.                                       21810001   37
           (830210E)                                              21810001   38
CORRECTION .TIME DEPENDENT BACKGROUND EVALUATED WITH              21810001   39
            S,NA,CO,W AND AG BLACK RESONANCE FILTERS.             21810001   40
           .CORRECTIONS FOR SELF-SHIELDING AND MULTIPLE           21810001   41
            SCATTERING HAVE BEEN CALCULATED, BUT ARE NOT          21810001   42
            INCLUDED IN THE DATA.                                 21810001   43
ERR-ANALYS (ERR-T) ESTIMATED TOTAL ERROR.                         21810001   44
ENDBIB              42                                            21810001   45
NOCOMMON             0          0                                 21810001   46
ENDSUBENT           45                                            2181000199999
SUBENT        21810002     861015                                 21810002    1
BIB                  5         12                                 21810002    2
REACTION   (46-PD-105(N,G)46-PD-106,,SIG,,AV)                     21810002    3
MONITOR    ((MONIT1)46-PD-105(N,G),,WID,,2G) VALUE FOR RESONANCE  21810002    4
            AT 55.2 EV.                                           21810002    5
           (79-AU-197(N,G)79-AU-198,,SIG) CROSS SECTION           21810002    6
            AT 200 KEV TAKEN FROM ENDF/B-V.                       21810002    7
           .THESE TWO NORMALIZATIONS AGREED TO WITHIN 3 PER CENT. 21810002    8
MONIT-REF  (21648002,P.STAVELOZ,C,79BOLOGN,,53,79)                21810002    9
STATUS     .TABLE 4.                                              21810002   10
HISTORY    (830119C) A.P.T.                                       21810002   11
           (830210E)                                              21810002   12
           (860808A)HH MONITOR/REACTION STRING CORRECTED          21810002   13
           (860807E)                                              21810002   14
ENDBIB              12                                            21810002   15
COMMON               3          3                                 21810002   16
MONIT1     MONIT1-ERR ERR-T                                       21810002   17
MILLI-EV   MILLI-EV   PER-CENT                                    21810002   18
 6.7000E+00 4.0000E-02 5.0000E+00                                 21810002   19
ENDCOMMON            3                                            21810002   20
DATA                 3         16                                 21810002   21
EN-MIN     EN-MAX     DATA                                        21810002   22
KEV        KEV        B                                           21810002   23
 3.0000E+00 4.0000E+00 2.3400E+00                                 21810002   24
 4.0000E+00 5.0000E+00 2.1700E+00                                 21810002   25
 5.0000E+00 6.0000E+00 2.3300E+00                                 21810002   26
 6.0000E+00 8.0000E+00 1.9200E+00                                 21810002   27
 8.0000E+00 1.0000E+01 1.7600E+00                                 21810002   28
 1.0000E+01 1.5000E+01 1.7200E+00                                 21810002   29
 1.5000E+01 2.0000E+01 1.5600E+00                                 21810002   30
 2.0000E+01 3.0000E+01 1.3700E+00                                 21810002   31
 3.0000E+01 4.0000E+01 1.1800E+00                                 21810002   32
 4.0000E+01 5.0000E+01 1.0800E+00                                 21810002   33
 5.0000E+01 6.0000E+01 9.7800E-01                                 21810002   34
 6.0000E+01 8.0000E+01 8.5200E-01                                 21810002   35
 8.0000E+01 1.0000E+02 7.1400E-01                                 21810002   36
 1.0000E+02 1.5000E+02 6.0300E-01                                 21810002   37
 1.5000E+02 2.0000E+02 4.9300E-01                                 21810002   38
 2.0000E+02 3.0000E+02 4.1600E-01                                 21810002   39
ENDDATA             18                                            21810002   40
ENDSUBENT           39                                            2181000299999
ENDENTRY             2                                            2181099999999
ENDREQUEST           1                                            Z999999999999
