    Gamma-Ray Yields from Thermal Neutrons on Cs
 
          Energy(De)        Intensity
   -------------------------------------
          116.370  2          15.15
          176.400  2          10.32
           60.030  1           8.48
          130.230  2           7.43
          205.610  2           5.65
          113.760  3           4.59
          307.260  3           4.15
          198.300  3           3.77
          234.340  2           3.73
          245.860  3           2.31
          120.590  2           2.26
           74.050  2           2.24
          450.310 12           1.91
          174.310  1           1.71
           1618.9 20           1.50
          219.760  5           1.31
          261.180  7           1.23
          116.610  1           1.22
           67.250  1           1.20
          218.350  4           1.14
          127.500  2           1.13
          118.360  1           1.13
          186.840  3           1.09
           87.250  1           1.07
           5252.3 20           1.02
           539.39  3           1.01
           356.30  1           0.94
           529.64  4           0.88
           5570.3 20           0.83
           2214.6 20           0.83
           5504.5 20           0.81
           5020.1 20           0.77
           622.17 15           0.76
          211.320  5           0.74
             6175  2           0.73
           519.29  4           0.72
          256.640  8           0.71
           442.85  1           0.69
           1808.8 20           0.68
          377.330 11           0.67
           502.89  8           0.65
          269.000  6           0.65
          309.790 13           0.64
           6051.3 20           0.62
            525.6  1           0.62
           648.57 16           0.57
           645.84 15           0.55
          295.440  6           0.55
           624.42 20           0.54
           93.190  4           0.53
           5376.8 20           0.52
             5637  2           0.49
           5493.1 20           0.49
            708.6  3           0.48
           554.79  5           0.47
          293.290  4           0.46
           633.12 20           0.45
          232.180  4           0.45
            682.5  3           0.44
          367.880 12           0.44
          200.840  5           0.44
           6188.3 20           0.43
          271.350  4           0.42
           524.05  8           0.41
          386.900 12           0.41
           6696.8 20           0.39
          317.080 13           0.39
             5224  2           0.37
            638.2  2           0.37
          303.170  8           0.37
          142.770  2           0.37
           663.28 25           0.36
          180.080  3           0.34
           5269.1 20           0.33
           528.62 10           0.33
          451.440 15           0.33
           439.03  2           0.32
          371.800 15           0.32
           365.93  2           0.31
           540.72  5           0.30
           444.48  2           0.30
           4922.5 20           0.29
           408.07  4           0.29
           302.47  1           0.29
          189.840  4           0.29
           487.44  4           0.28
             4720  2           0.27
           558.36 25           0.27
          209.550  6           0.27
          207.670  6           0.27
           6439.5 20           0.26
           3597.6 20           0.26
           489.22 10           0.26
          263.850  8           0.26
          114.330  4           0.26
            464.5 17           0.24
           5790.1 20           0.23
           4753.1 20           0.23
           4540.3 20           0.23
          117.170  9           0.23
           5898.1 20           0.22
           4967.2 20           0.22
           485.05  3           0.22
          461.140 15           0.22
           277.65  1           0.22
           73.570  3           0.22
           4297.4 20           0.21
           406.78  3           0.21
          279.660 12           0.21
          272.220 11           0.21
           5748.1 20           0.20
             4563  2           0.20
           458.89  6           0.20
          454.090 23           0.20
           429.80  4           0.20
          417.330 18           0.20
          329.040  7           0.20
           4931.5 20           0.19
           547.40 25           0.19
           405.48  2           0.19
          347.170  8           0.19
          305.060 12           0.19
           6715.6 20           0.18
             5729  2           0.18
           5313.2 20           0.18
          391.460 24           0.18
           345.38  2           0.18
            61.12  1           0.18
           495.68 10           0.17
           434.47 20           0.17
          254.760  9           0.17
             5949  2           0.16
           4068.4 20           0.16
           403.10 15           0.16
           197.78  1           0.16
          194.710 11           0.16
             5802  2           0.15
           5435.6 20           0.15
           394.01  3           0.15
          315.420 11           0.15
           285.00  1           0.15
           149.52  1           0.15
           61.170 15           0.15
           6388.3 20           0.14
           4589.8 20           0.14
           251.40  1           0.14
          133.590  3           0.14
           6110.6 20           0.13
             6018  2           0.13
             5976  2           0.13
           5623.8 20           0.13
          381.490 25           0.13
            97.56  1           0.13
           4686.4 20           0.12
           4656.6 20           0.12
           4620.9 20           0.12
           6419.3 20           0.11
           4946.4 20           0.11
           4522.3 20           0.11
          240.680 13           0.11
           193.72  1           0.11
          179.020  1           0.11
          177.020 25           0.11
          137.760  5           0.11
             4896  2           0.10
             4667  2           0.10
           3933.9 20           0.10
           432.45 20           0.10
           384.38  6           0.10
            349.8  1           0.10
          338.020 15           0.10
           336.07  6           0.10
          190.260  5           0.10
           6319.9 20           0.09
           4770.2 20           0.09
            412.5  2           0.09
           402.41 15           0.09
          376.360 15           0.09
          150.790  5           0.09
          145.860  6           0.09
          132.760  6           0.09
           426.40 15           0.08
           421.02 15           0.08
           383.94  8           0.08
           316.40  2           0.08
          244.550 25           0.08
           127.71  1           0.08
           421.63 20           0.07
           414.50 25           0.07
           336.47 10           0.07
           322.70  4           0.07
           296.20 12           0.07
           260.58 12           0.07
           211.92  2           0.07
           173.79  1           0.07
           344.79  3           0.06
           290.66  3           0.06
          253.670 12           0.06
           347.82 12           0.05
           274.96 10           0.05
          146.420 25           0.05
          131.180 14           0.05
           115.34  3           0.05
   -------------------------------------
