    Gamma-Ray Yields from Thermal Neutrons on Ga
 
          Energy(De)        Intensity
   -------------------------------------
             6360  2          12.78
            691.7 20          11.27
            250.9 20           9.46
           5339.1 20           7.04
            393.7 20           6.44
             6008  2           6.09
           5601.5 20           4.95
           6111.4 20           4.82
              651  2           4.19
           1552.1 20           3.76
              319  2           3.50
             5195  2           3.48
           4840.5 20           3.40
           6391.5 20           3.20
           5488.2 20           2.81
           6318.4 20           2.55
           1888.8 20           2.48
           4869.7 20           2.42
           3130.9 20           2.25
           1839.7 20           2.19
            230.9 20           2.17
            303.6 20           2.14
           5692.4 20           2.03
             5920  2           2.01
           4358.1 20           1.96
            213.6 20           1.96
           7002.7 20           1.95
           4541.8 20           1.95
           5779.6 20           1.88
           3373.4 20           1.79
           5541.4 20           1.77
            376.6 20           1.77
           5159.1 20           1.69
           2015.2 20           1.67
           4431.8 20           1.60
            560.4 20           1.56
           1140.6 20           1.53
           6193.1 20           1.51
           5234.4 20           1.46
             3860  2           1.45
           1931.7 20           1.38
            758.3 20           1.30
           4890.7 20           1.28
            659.9 20           1.25
             4196  2           1.23
           4792.5 20           1.22
           4595.7 20           1.13
            710.3 20           1.09
             5806  2           1.08
           1949.9 20           1.06
           3687.2 20           1.03
           2062.5 20           1.03
           2474.6 20           1.01
           3111.2 20           1.00
           2269.6 20           1.00
           2126.1 20           1.00
           3944.8 20           0.96
           4698.9 20           0.95
           3991.6 20           0.92
            411.4 20           0.92
            277.5 20           0.92
           2576.4 20           0.90
           3524.4 20           0.89
           2603.9 20           0.86
           2116.2 20           0.86
           6129.9 20           0.84
           2640.2 20           0.84
            869.3 20           0.81
             3566  2           0.78
             2257  2           0.78
           4627.5 20           0.76
           3661.7 20           0.76
             2552  2           0.75
           5651.3 20           0.70
           4311.8 20           0.70
           3500.7 20           0.70
           2789.2 20           0.70
           2692.1 20           0.70
           2323.6 20           0.70
             2676  2           0.69
           2351.9 20           0.69
            267.6 20           0.69
           5055.2 20           0.67
           3746.3 20           0.66
           3420.7 20           0.66
           5901.4 20           0.64
           2899.8 20           0.64
           1173.6 20           0.64
           2396.2 20           0.63
           2342.5 20           0.63
             5745  2           0.62
           5718.7 20           0.62
           2626.5 20           0.62
           2407.4 20           0.62
           4757.4 20           0.61
           3236.7 20           0.61
           5886.2 20           0.60
           2919.4 20           0.60
           4337.7 20           0.59
            489.1 20           0.58
             3169  2           0.57
           3477.8 20           0.56
           2453.6 20           0.56
           2755.4 20           0.55
           3894.8 20           0.52
           3038.8 20           0.52
           5221.3 20           0.49
           5002.9 20           0.49
           3158.1 20           0.48
             2852  2           0.48
           5577.8 20           0.47
           5625.7 20           0.45
           4575.2 20           0.43
           3777.5 20           0.43
           5370.4 20           0.42
           4136.3 20           0.41
           3975.9 20           0.41
           4013.5 20           0.39
           3300.6 20           0.39
             3270  2           0.39
             4723  2           0.38
           4032.3 20           0.38
            999.3 20           0.38
             5270  2           0.37
             4071  2           0.35
           4085.6 20           0.34
             5301  2           0.33
            671.3 20           0.33
            588.1 20           0.33
            903.8 20           0.32
           6521.6 20           0.31
           6293.2 20           0.31
           5408.6 20           0.31
           3764.3 20           0.31
           4748.5 20           0.30
           4652.2 20           0.30
           3842.9 20           0.30
           6512.6 20           0.29
           5464.4 20           0.29
           3794.1 20           0.29
            549.7 20           0.26
           3805.2 20           0.25
           5018.5 20           0.24
             4479  2           0.23
   -------------------------------------
