    Gamma-Ray Yields from Thermal Neutrons on  I
 
          Energy(De)        Intensity
   -------------------------------------
           133.61  5           8.43
         442.8900  2           4.38
            58.16  7           1.85
            27.18 15           1.69
          301.870 18           1.34
          420.900 17           1.19
           1618.7 20           1.18
           153.02  5           1.14
            52.48  7           1.14
           124.30  5           1.10
          5559.09  8           1.07
           160.74  5           1.05
        5197.4900 21           0.86
           142.15  5           0.84
           248.73  4           0.75
           193.54  5           0.66
             2207  2           0.61
          344.730  9           0.59
           156.53  5           0.59
           147.11  5           0.59
             67.1  1           0.59
          392.260 14           0.56
           6691.4  4           0.54
         4949.600 21           0.54
           374.36  3           0.52
         6306.930 16           0.51
            413.3 20           0.49
           224.12  3           0.46
          5725.64 10           0.45
           385.39  6           0.43
           1984.9 20           0.42
         5462.880 17           0.41
           700.79  9           0.41
           106.27  6           0.41
           589.13  7           0.39
           5574.0  3           0.38
          5482.63 19           0.36
          268.300  5           0.34
            42.80 12           0.34
         5297.680  4           0.32
           5091.1  5           0.32
           692.98 14           0.32
           4102.2 20           0.31
            695.1  6           0.31
          314.360 16           0.31
           502.63  7           0.30
           202.85 10           0.30
           5018.2  3           0.28
           4048.4 20           0.26
          6390.15  8           0.25
          5095.69  5           0.25
          5.0E3                0.25
          526.600 11           0.25
         5740.960  9           0.24
           898.62  3           0.24
           782.89 11           0.24
           747.45 11           0.24
           743.43 20           0.24
            354.7 20           0.24
           5578.1  5           0.22
            696.5  6           0.22
           634.37  8           0.22
           528.73  8           0.22
           251.60  6           0.22
           5209.1  5           0.21
           590.46 11           0.21
           164.15  6           0.21
           628.37  9           0.20
           325.10  5           0.20
           4288.6 20           0.19
           2937.6 20           0.19
            698.4  4           0.19
           126.99 10           0.19
          6271.50 16           0.18
          5522.60  9           0.18
          5338.52 15           0.18
           4937.0  5           0.18
          4601.14 14           0.18
           4073.6 20           0.18
           1071.4  5           0.18
           638.60 15           0.18
           6682.0  7           0.17
          6645.04  9           0.17
          5890.89 14           0.17
          4542.86 21           0.17
          1196.71  4           0.17
            558.6 20           0.17
           6450.5  3           0.16
           1141.7  4           0.16
              932  2           0.16
           790.20 15           0.16
           744.98 15           0.16
           461.21  7           0.16
          5793.78  7           0.15
           5042.9  3           0.15
           4878.5  4           0.15
          4757.39  7           0.15
           4392.9 20           0.15
           4342.5 20           0.15
            981.4 20           0.15
           705.46 15           0.15
           593.27  9           0.15
           557.42  4           0.15
           5985.0  3           0.14
           5918.5 20           0.14
          5384.53 18           0.14
         5272.080 19           0.14
           4892.1  3           0.14
          4710.04 12           0.14
           613.18 10           0.14
          492.940 18           0.14
           464.55  4           0.14
           398.61  7           0.14
           284.01 16           0.14
          255.530 23           0.14
           6696.4  8           0.13
           5014.0  7           0.13
           4955.3  6           0.13
          4804.21  3           0.13
           4668.0  6           0.13
          4504.05  9           0.13
           888.06  8           0.13
           715.62 15           0.13
           658.60 18           0.13
           636.16 18           0.13
           458.01 10           0.13
           331.00  8           0.13
          4619.27 19           0.12
           3397.4 20           0.12
           1063.6 20           0.12
           969.45 25           0.12
           723.09 15           0.12
           648.95 18           0.12
           582.23 14           0.12
           536.34 12           0.12
           389.07  6           0.12
           235.81  5           0.12
           231.27  7           0.12
           205.39 10           0.12
           6740.1  6           0.11
           4624.5  3           0.11
           4585.5  4           0.11
           4425.7 20           0.11
           4152.8 20           0.11
           3978.9 20           0.11
           3656.4 20           0.11
           1151.2  3           0.11
          1051.96 20           0.11
           864.82 25           0.11
           282.44 16           0.11
           258.99  7           0.11
           206.94  7           0.11
           102.31  6           0.11
           5286.9 10           0.10
           5028.4  7           0.10
           1133.3  3           0.10
            570.6 20           0.10
           6213.9 20           0.09
           5722.7  6           0.09
           5109.7  6           0.09
           4926.8  6           0.09
           4650.0  6           0.09
           4256.8 20           0.09
           1147.4  3           0.09
           804.91 25           0.09
           618.45 15           0.09
           544.52 15           0.09
           518.49 15           0.09
            462.4  4           0.09
           364.46 12           0.09
           299.97 25           0.09
           290.80  6           0.09
           144.28 15           0.09
           5997.5  6           0.08
           5977.0  6           0.08
           5494.4  4           0.08
           5361.4 20           0.08
          5137.14 16           0.08
           4781.8  7           0.08
           4742.3  6           0.08
           4659.8  6           0.08
           4640.8  8           0.08
          4515.99 10           0.08
           1394.6  4           0.08
          1094.06 25           0.08
          1048.73  7           0.08
           1035.9  3           0.08
           1008.8  3           0.08
            998.2  3           0.08
            966.3  4           0.08
            947.3  3           0.08
            945.1  3           0.08
           857.51 25           0.08
            841.3  4           0.08
           822.14 25           0.08
           811.65 25           0.08
           647.16 20           0.08
           643.49 20           0.08
           608.82 25           0.08
           598.46 20           0.08
           480.90 15           0.08
           470.30 15           0.08
           450.77 25           0.08
           424.87 15           0.08
           369.37 12           0.08
           317.43 10           0.08
           310.70 25           0.08
           297.64 13           0.08
           264.83  8           0.08
           6292.2  6           0.07
           5909.1  5           0.07
           5370.5 10           0.07
           5358.5  9           0.07
          4851.18  4           0.07
           4636.0  9           0.07
           4524.0  8           0.07
           4511.2 10           0.07
           4407.7 20           0.07
           3510.8 20           0.07
           3417.9 20           0.07
           1074.1  4           0.07
           1015.1  3           0.07
           1006.3  4           0.07
            890.2  3           0.07
            826.5  4           0.07
            640.3  3           0.07
           622.04 20           0.07
           579.56 22           0.07
           504.37 25           0.07
           500.08 25           0.07
            95.18 12           0.07
            80.73 12           0.07
           5734.5  8           0.06
           5657.5  6           0.06
           5551.1  6           0.06
           5445.6  6           0.06
           5408.4  6           0.06
           5181.7  6           0.06
           5119.4  7           0.06
           5032.9 10           0.06
           4872.5  8           0.06
           4864.5  9           0.06
           4788.8 11           0.06
           4570.7  6           0.06
           1045.1  4           0.06
           1028.9  4           0.06
            839.2  5           0.06
            778.0  3           0.06
           660.76 22           0.06
            586.8  3           0.06
           477.32 20           0.06
           6441.6  8           0.05
           6164.2  8           0.05
           6015.5 20           0.05
           5960.1  6           0.05
           5944.4  5           0.05
           5646.8  6           0.05
           5452.0 21           0.05
           4771.3 10           0.05
           4749.6  8           0.05
           4692.1  7           0.05
           4612.9  8           0.05
           4593.0  8           0.05
           4306.4 20           0.05
           1321.8  6           0.05
            939.8  4           0.05
           750.45 25           0.05
            720.2  4           0.05
           523.62 25           0.05
           483.94 20           0.05
           409.79 25           0.05
           335.03 20           0.05
           6481.3 20           0.04
           5599.7 20           0.04
           5156.5 20           0.04
   -------------------------------------
