    Gamma-Ray Yields from Thermal Neutrons on Xe
 
          Energy(De)        Intensity
   -------------------------------------
            668.9  1          80.00
            773.9  2          22.24
            537.4  2          19.52
            631.5  3          14.64
           2225.2  5          12.56
            481.8 10          12.56
           1319.9  5          12.08
           1297.8  5          11.92
            600.2  7          11.36
           1291.3  3           6.88
           6467.5 10           5.60
           1031.5  5           4.96
           1804.2  5           3.92
           1522.7 10           3.28
            869.9  5           3.28
           1204.6  8           3.20
           1139.5  5           3.04
           1484.8 10           2.80
            524.3 15           2.72
           1987.4 10           2.56
           1156.7 14           2.48
           2929.5  9           2.40
           1725.0  5           2.40
           1617.4  9           2.40
           1890.1  5           2.24
           1173.0 11           2.24
           2519.1  6           2.08
           2170.8 10           2.08
             1624  1           2.00
           1502.4 20           1.92
           1465.2 15           1.92
           1637.4 10           1.84
           1098.9  4           1.84
            751.8 10           1.84
           1770.7 12           1.76
           1957.8 10           1.68
           3030.8 17           1.60
           2209.6 16           1.60
           1379.4  3           1.60
           1124.1  8           1.60
           2539.2 14           1.52
           2094.8  8           1.52
           2030.6  7           1.44
            958.9  8           1.36
            895.3  9           1.36
             3529  3           1.28
           2977.1 20           1.28
           1945.9 11           1.28
             1598  3           1.28
           1261.3 10           1.28
           1853.4 23           1.20
           6380.1 10           1.19
             1715  1           1.12
           1560.8 10           1.12
            760.9 18           1.12
           1975.1 25           1.04
           1417.7 16           1.04
            812.7  7           1.04
            571.1 25           1.04
            401.7 15           1.04
           5755.8 11           0.97
           2194.6 14           0.96
           2292.5 15           0.88
           1608.2 19           0.88
           1402.3 20           0.88
            992.0 15           0.88
            430.5 15           0.88
           2575.3 15           0.80
           1899.8 15           0.80
           1861.2 14           0.80
           1691.9 10           0.80
             1366  3           0.72
             5515  3           0.68
           1928.4 16           0.64
             1698  3           0.64
             1473  6           0.64
           1072.0 12           0.64
            848.3 10           0.64
            384.2 15           0.64
           8272.8 14           0.57
           6109.1 13           0.56
             2268  3           0.56
           5074.4 20           0.52
           1656.3 24           0.48
           1011.9 14           0.48
            832.1 12           0.48
             6247  3           0.42
             5404  4           0.42
             3357  5           0.40
             2074  3           0.40
             4861  5           0.36
           6271.4 23           0.34
             5475  6           0.31
             7141  4           0.30
           5919.1 13           0.30
             5004  8           0.29
             6167  5           0.28
           5236.8 20           0.28
           4836.6 20           0.28
           9301.4 21           0.27
             3589  4           0.27
             6785  3           0.26
             5100  4           0.26
             5704  3           0.25
             5694  3           0.23
             5341  7           0.23
             6318  3           0.22
           5207.4 21           0.22
           4902.2 20           0.22
           6622.6 25           0.20
             5139  3           0.20
             6424  5           0.19
             6184  4           0.19
           7204.3 20           0.18
             6064  3           0.17
             5887  3           0.17
             5721  2           0.17
             8584  5           0.16
             6226  3           0.16
           5427.9 16           0.16
             8320  5           0.15
           7920.4 20           0.15
           7413.2 23           0.15
             6750  4           0.15
             8395  5           0.14
             6958  3           0.14
             5268  4           0.14
             6526  4           0.13
             5959  3           0.13
             8109  6           0.12
           7239.9 25           0.12
             6891  4           0.12
           7369.2 17           0.11
             6710  5           0.11
             5028  6           0.11
             7181  5           0.10
           5389.9 22           0.10
             7687  6           0.08
             6594  4           0.08
             7794  3           0.06
             8759  6           0.02
   -------------------------------------
